##TITLE= copper in gd-1
##JCAMP-DX= 4.24
##DATA TYPE= UV/VIS SPECTRUM
##ORIGIN= 
##OWNER= U-3300 user
##DATE= 14:26:34, 11/28/2022
##SAMPLE DESCRIPTION= 
##SPECTROMETER/DATA SYSTEM= Hitachi Model U-3300形分光光度計;
ｼﾘｱﾙ No.: 1146-001;
ROM Ver.: 2520 10;
##INSTRUMENT PARAMETERS= ｽｷｬﾝｽﾋﾟｰﾄﾞ= 120 nm/min;
ｽﾘｯﾄ= 4 nm;
ﾎﾄﾏﾙ電圧= 自動制御;
光源切換= 340.00 nm;
ﾍﾞｰｽﾗｲﾝ設定= ﾕｰｻﾞ 1;
高分解能測定= Off;
##DELTAX= -1.00
##PATH_LENGTH= 10.0mm
##XLABEL= nm
##YLABEL= %T
##XUNITS= NANOMETERS
##YUNITS= % TRANSMITTANCE
##XFACTOR= 1.0
##YFACTOR= 1.0
##FIRSTX= 800.00
##LASTX= 200.00
##NPOINTS= 601
##XYDATA= (X++(Y..Y))
800.00 99.5
799.00 99.5
798.00 99.5
797.00 99.5
796.00 99.5
795.00 99.6
794.00 99.6
793.00 99.6
792.00 99.6
791.00 99.5
790.00 99.5
789.00 99.5
788.00 99.5
787.00 99.5
786.00 99.5
785.00 99.5
784.00 99.5
783.00 99.6
782.00 99.6
781.00 99.6
780.00 99.6
779.00 99.6
778.00 99.6
777.00 99.6
776.00 99.6
775.00 99.6
774.00 99.6
773.00 99.6
772.00 99.5
771.00 99.5
770.00 99.5
769.00 99.5
768.00 99.5
767.00 99.6
766.00 99.6
765.00 99.6
764.00 99.6
763.00 99.5
762.00 99.5
761.00 99.5
760.00 99.5
759.00 99.5
758.00 99.5
757.00 99.5
756.00 99.5
755.00 99.6
754.00 99.6
753.00 99.6
752.00 99.6
751.00 99.6
750.00 99.6
749.00 99.6
748.00 99.6
747.00 99.6
746.00 99.6
745.00 99.6
744.00 99.6
743.00 99.6
742.00 99.6
741.00 99.6
740.00 99.6
739.00 99.6
738.00 99.6
737.00 99.6
736.00 99.6
735.00 99.6
734.00 99.6
733.00 99.6
732.00 99.6
731.00 99.6
730.00 99.6
729.00 99.6
728.00 99.6
727.00 99.6
726.00 99.6
725.00 99.6
724.00 99.6
723.00 99.6
722.00 99.6
721.00 99.6
720.00 99.6
719.00 99.6
718.00 99.6
717.00 99.6
716.00 99.6
715.00 99.6
714.00 99.6
713.00 99.6
712.00 99.6
711.00 99.6
710.00 99.6
709.00 99.6
708.00 99.6
707.00 99.6
706.00 99.6
705.00 99.6
704.00 99.6
703.00 99.5
702.00 99.5
701.00 99.5
700.00 99.6
699.00 99.6
698.00 99.6
697.00 99.6
696.00 99.6
695.00 99.6
694.00 99.6
693.00 99.6
692.00 99.6
691.00 99.5
690.00 99.6
689.00 99.6
688.00 99.6
687.00 99.6
686.00 99.6
685.00 99.6
684.00 99.6
683.00 99.6
682.00 99.6
681.00 99.6
680.00 99.6
679.00 99.6
678.00 99.6
677.00 99.6
676.00 99.6
675.00 99.6
674.00 99.6
673.00 99.6
672.00 99.6
671.00 99.6
670.00 99.6
669.00 99.6
668.00 99.6
667.00 99.6
666.00 99.6
665.00 99.6
664.00 99.6
663.00 99.6
662.00 99.6
661.00 99.6
660.00 99.6
659.00 99.6
658.00 99.6
657.00 99.6
656.00 99.6
655.00 99.6
654.00 99.6
653.00 99.6
652.00 99.6
651.00 99.6
650.00 99.6
649.00 99.6
648.00 99.6
647.00 99.6
646.00 99.6
645.00 99.6
644.00 99.6
643.00 99.6
642.00 99.6
641.00 99.6
640.00 99.6
639.00 99.6
638.00 99.6
637.00 99.6
636.00 99.6
635.00 99.6
634.00 99.6
633.00 99.6
632.00 99.6
631.00 99.6
630.00 99.6
629.00 99.6
628.00 99.6
627.00 99.6
626.00 99.6
625.00 99.6
624.00 99.6
623.00 99.6
622.00 99.6
621.00 99.6
620.00 99.6
619.00 99.6
618.00 99.6
617.00 99.6
616.00 99.6
615.00 99.6
614.00 99.6
613.00 99.6
612.00 99.6
611.00 99.6
610.00 99.6
609.00 99.6
608.00 99.6
607.00 99.6
606.00 99.6
605.00 99.6
604.00 99.6
603.00 99.6
602.00 99.6
601.00 99.6
600.00 99.6
599.00 99.6
598.00 99.6
597.00 99.6
596.00 99.6
595.00 99.6
594.00 99.6
593.00 99.6
592.00 99.6
591.00 99.6
590.00 99.6
589.00 99.6
588.00 99.6
587.00 99.6
586.00 99.6
585.00 99.6
584.00 99.6
583.00 99.6
582.00 99.6
581.00 99.6
580.00 99.6
579.00 99.6
578.00 99.6
577.00 99.6
576.00 99.6
575.00 99.6
574.00 99.6
573.00 99.6
572.00 99.6
571.00 99.6
570.00 99.6
569.00 99.6
568.00 99.6
567.00 99.6
566.00 99.6
565.00 99.6
564.00 99.6
563.00 99.6
562.00 99.6
561.00 99.6
560.00 99.6
559.00 99.6
558.00 99.6
557.00 99.6
556.00 99.6
555.00 99.6
554.00 99.6
553.00 99.5
552.00 99.5
551.00 99.5
550.00 99.5
549.00 99.5
548.00 99.5
547.00 99.5
546.00 99.6
545.00 99.6
544.00 99.5
543.00 99.5
542.00 99.5
541.00 99.5
540.00 99.5
539.00 99.5
538.00 99.5
537.00 99.5
536.00 99.5
535.00 99.5
534.00 99.5
533.00 99.5
532.00 99.5
531.00 99.5
530.00 99.5
529.00 99.5
528.00 99.5
527.00 99.5
526.00 99.5
525.00 99.5
524.00 99.5
523.00 99.5
522.00 99.5
521.00 99.5
520.00 99.5
519.00 99.5
518.00 99.5
517.00 99.5
516.00 99.5
515.00 99.5
514.00 99.5
513.00 99.5
512.00 99.4
511.00 99.4
510.00 99.4
509.00 99.4
508.00 99.4
507.00 99.4
506.00 99.4
505.00 99.4
504.00 99.4
503.00 99.4
502.00 99.4
501.00 99.4
500.00 99.4
499.00 99.4
498.00 99.4
497.00 99.4
496.00 99.4
495.00 99.4
494.00 99.4
493.00 99.4
492.00 99.4
491.00 99.4
490.00 99.4
489.00 99.4
488.00 99.4
487.00 99.4
486.00 99.4
485.00 99.4
484.00 99.4
483.00 99.4
482.00 99.3
481.00 99.3
480.00 99.3
479.00 99.3
478.00 99.3
477.00 99.4
476.00 99.3
475.00 99.3
474.00 99.3
473.00 99.3
472.00 99.3
471.00 99.3
470.00 99.3
469.00 99.3
468.00 99.3
467.00 99.3
466.00 99.3
465.00 99.3
464.00 99.3
463.00 99.3
462.00 99.3
461.00 99.3
460.00 99.3
459.00 99.3
458.00 99.3
457.00 99.3
456.00 99.3
455.00 99.3
454.00 99.3
453.00 99.2
452.00 99.2
451.00 99.2
450.00 99.2
449.00 99.2
448.00 99.2
447.00 99.2
446.00 99.2
445.00 99.2
444.00 99.2
443.00 99.2
442.00 99.2
441.00 99.2
440.00 99.2
439.00 99.2
438.00 99.1
437.00 99.1
436.00 99.1
435.00 99.1
434.00 99.1
433.00 99.1
432.00 99.1
431.00 99.1
430.00 99.0
429.00 99.0
428.00 99.0
427.00 99.0
426.00 99.0
425.00 99.0
424.00 99.0
423.00 99.0
422.00 99.0
421.00 99.0
420.00 99.0
419.00 99.0
418.00 99.0
417.00 99.0
416.00 99.0
415.00 99.0
414.00 99.0
413.00 99.0
412.00 99.0
411.00 99.0
410.00 99.0
409.00 98.9
408.00 98.9
407.00 98.9
406.00 98.9
405.00 98.9
404.00 98.9
403.00 98.9
402.00 98.9
401.00 98.9
400.00 98.9
399.00 98.9
398.00 98.9
397.00 98.8
396.00 98.8
395.00 98.8
394.00 98.8
393.00 98.8
392.00 98.8
391.00 98.8
390.00 98.8
389.00 98.8
388.00 98.8
387.00 98.8
386.00 98.8
385.00 98.8
384.00 98.8
383.00 98.8
382.00 98.8
381.00 98.7
380.00 98.7
379.00 98.7
378.00 98.7
377.00 98.7
376.00 98.6
375.00 98.6
374.00 98.6
373.00 98.6
372.00 98.6
371.00 98.6
370.00 98.6
369.00 98.6
368.00 98.6
367.00 98.6
366.00 98.6
365.00 98.5
364.00 98.5
363.00 98.5
362.00 98.5
361.00 98.5
360.00 98.5
359.00 98.5
358.00 98.4
357.00 98.4
356.00 98.4
355.00 98.4
354.00 98.4
353.00 98.4
352.00 98.4
351.00 98.4
350.00 98.4
349.00 98.4
348.00 98.4
347.00 98.3
346.00 98.3
345.00 98.3
344.00 98.3
343.00 98.3
342.00 98.3
341.00 98.2
340.00 98.2
339.00 98.2
338.00 98.2
337.00 98.2
336.00 98.1
335.00 98.1
334.00 98.1
333.00 98.1
332.00 98.0
331.00 98.0
330.00 98.0
329.00 98.0
328.00 98.0
327.00 98.0
326.00 98.0
325.00 97.9
324.00 97.9
323.00 97.9
322.00 97.8
321.00 97.8
320.00 97.8
319.00 97.8
318.00 97.7
317.00 97.7
316.00 97.7
315.00 97.6
314.00 97.6
313.00 97.6
312.00 97.5
311.00 97.5
310.00 97.5
309.00 97.4
308.00 97.4
307.00 97.4
306.00 97.3
305.00 97.3
304.00 97.2
303.00 97.2
302.00 97.2
301.00 97.1
300.00 97.1
299.00 97.0
298.00 97.0
297.00 96.9
296.00 96.9
295.00 96.9
294.00 96.8
293.00 96.8
292.00 96.7
291.00 96.6
290.00 96.6
289.00 96.5
288.00 96.5
287.00 96.4
286.00 96.4
285.00 96.3
284.00 96.3
283.00 96.2
282.00 96.2
281.00 96.1
280.00 96.0
279.00 96.0
278.00 95.9
277.00 95.8
276.00 95.7
275.00 95.5
274.00 95.4
273.00 95.4
272.00 95.4
271.00 95.4
270.00 95.4
269.00 95.4
268.00 95.3
267.00 95.3
266.00 95.2
265.00 95.1
264.00 95.0
263.00 94.9
262.00 94.8
261.00 94.7
260.00 94.6
259.00 94.6
258.00 94.5
257.00 94.4
256.00 94.3
255.00 94.2
254.00 94.1
253.00 94.0
252.00 93.9
251.00 93.8
250.00 93.7
249.00 93.6
248.00 93.5
247.00 93.4
246.00 93.2
245.00 93.1
244.00 93.0
243.00 92.8
242.00 92.6
241.00 92.5
240.00 92.3
239.00 92.0
238.00 91.8
237.00 91.5
236.00 91.1
235.00 90.8
234.00 90.4
233.00 89.9
232.00 89.5
231.00 88.9
230.00 88.3
229.00 87.7
228.00 87.0
227.00 86.2
226.00 85.4
225.00 84.5
224.00 83.6
223.00 82.7
222.00 81.7
221.00 80.7
220.00 79.7
219.00 78.6
218.00 77.4
217.00 76.3
216.00 75.2
215.00 74.2
214.00 73.1
213.00 72.2
212.00 71.2
211.00 70.4
210.00 69.5
209.00 68.8
208.00 68.0
207.00 67.4
206.00 66.8
205.00 66.2
204.00 65.6
203.00 65.0
202.00 64.5
201.00 64.0
200.00 63.7
##END=
