##TITLE= copper in gd-1
##JCAMP-DX= 4.24
##DATA TYPE= UV/VIS SPECTRUM
##ORIGIN= 
##OWNER= U-3300 user
##DATE= 14:13:44, 11/28/2022
##SAMPLE DESCRIPTION= 
##SPECTROMETER/DATA SYSTEM= Hitachi Model U-3300形分光光度計;
ｼﾘｱﾙ No.: 1146-001;
ROM Ver.: 2520 10;
##INSTRUMENT PARAMETERS= ｽｷｬﾝｽﾋﾟｰﾄﾞ= 120 nm/min;
ｽﾘｯﾄ= 4 nm;
ﾎﾄﾏﾙ電圧= 自動制御;
光源切換= 340.00 nm;
ﾍﾞｰｽﾗｲﾝ設定= ﾕｰｻﾞ 1;
高分解能測定= Off;
##DELTAX= -1.00
##PATH_LENGTH= 10.0mm
##XLABEL= nm
##YLABEL= %T
##XUNITS= NANOMETERS
##YUNITS= % TRANSMITTANCE
##XFACTOR= 1.0
##YFACTOR= 1.0
##FIRSTX= 800.00
##LASTX= 200.00
##NPOINTS= 601
##XYDATA= (X++(Y..Y))
800.00 99.5
799.00 99.5
798.00 99.5
797.00 99.5
796.00 99.5
795.00 99.6
794.00 99.6
793.00 99.6
792.00 99.5
791.00 99.5
790.00 99.5
789.00 99.5
788.00 99.5
787.00 99.5
786.00 99.5
785.00 99.5
784.00 99.5
783.00 99.6
782.00 99.5
781.00 99.5
780.00 99.5
779.00 99.5
778.00 99.5
777.00 99.5
776.00 99.5
775.00 99.6
774.00 99.5
773.00 99.5
772.00 99.5
771.00 99.5
770.00 99.5
769.00 99.5
768.00 99.5
767.00 99.5
766.00 99.6
765.00 99.5
764.00 99.5
763.00 99.5
762.00 99.5
761.00 99.5
760.00 99.5
759.00 99.5
758.00 99.5
757.00 99.5
756.00 99.5
755.00 99.5
754.00 99.5
753.00 99.5
752.00 99.5
751.00 99.5
750.00 99.5
749.00 99.5
748.00 99.5
747.00 99.5
746.00 99.5
745.00 99.5
744.00 99.5
743.00 99.5
742.00 99.5
741.00 99.5
740.00 99.5
739.00 99.5
738.00 99.5
737.00 99.5
736.00 99.5
735.00 99.5
734.00 99.5
733.00 99.5
732.00 99.5
731.00 99.5
730.00 99.5
729.00 99.5
728.00 99.5
727.00 99.5
726.00 99.5
725.00 99.5
724.00 99.5
723.00 99.5
722.00 99.5
721.00 99.5
720.00 99.6
719.00 99.6
718.00 99.6
717.00 99.5
716.00 99.5
715.00 99.6
714.00 99.6
713.00 99.6
712.00 99.6
711.00 99.6
710.00 99.6
709.00 99.6
708.00 99.6
707.00 99.6
706.00 99.6
705.00 99.6
704.00 99.6
703.00 99.6
702.00 99.6
701.00 99.6
700.00 99.6
699.00 99.6
698.00 99.6
697.00 99.6
696.00 99.6
695.00 99.6
694.00 99.6
693.00 99.6
692.00 99.6
691.00 99.6
690.00 99.6
689.00 99.6
688.00 99.6
687.00 99.6
686.00 99.6
685.00 99.6
684.00 99.6
683.00 99.6
682.00 99.6
681.00 99.6
680.00 99.6
679.00 99.6
678.00 99.6
677.00 99.6
676.00 99.6
675.00 99.6
674.00 99.6
673.00 99.6
672.00 99.6
671.00 99.6
670.00 99.6
669.00 99.6
668.00 99.6
667.00 99.6
666.00 99.6
665.00 99.6
664.00 99.6
663.00 99.6
662.00 99.6
661.00 99.6
660.00 99.6
659.00 99.6
658.00 99.6
657.00 99.6
656.00 99.6
655.00 99.6
654.00 99.6
653.00 99.6
652.00 99.6
651.00 99.6
650.00 99.6
649.00 99.6
648.00 99.6
647.00 99.6
646.00 99.6
645.00 99.6
644.00 99.6
643.00 99.6
642.00 99.6
641.00 99.6
640.00 99.6
639.00 99.6
638.00 99.6
637.00 99.6
636.00 99.6
635.00 99.6
634.00 99.6
633.00 99.6
632.00 99.6
631.00 99.6
630.00 99.6
629.00 99.6
628.00 99.6
627.00 99.6
626.00 99.6
625.00 99.6
624.00 99.6
623.00 99.6
622.00 99.6
621.00 99.6
620.00 99.6
619.00 99.6
618.00 99.6
617.00 99.6
616.00 99.6
615.00 99.6
614.00 99.6
613.00 99.6
612.00 99.6
611.00 99.6
610.00 99.6
609.00 99.6
608.00 99.6
607.00 99.6
606.00 99.6
605.00 99.6
604.00 99.6
603.00 99.6
602.00 99.6
601.00 99.6
600.00 99.6
599.00 99.6
598.00 99.6
597.00 99.6
596.00 99.6
595.00 99.6
594.00 99.6
593.00 99.6
592.00 99.6
591.00 99.6
590.00 99.6
589.00 99.6
588.00 99.6
587.00 99.6
586.00 99.6
585.00 99.6
584.00 99.6
583.00 99.6
582.00 99.6
581.00 99.6
580.00 99.6
579.00 99.6
578.00 99.6
577.00 99.6
576.00 99.6
575.00 99.6
574.00 99.6
573.00 99.6
572.00 99.6
571.00 99.6
570.00 99.6
569.00 99.6
568.00 99.6
567.00 99.6
566.00 99.6
565.00 99.6
564.00 99.6
563.00 99.6
562.00 99.6
561.00 99.6
560.00 99.6
559.00 99.6
558.00 99.6
557.00 99.6
556.00 99.6
555.00 99.6
554.00 99.6
553.00 99.6
552.00 99.6
551.00 99.6
550.00 99.6
549.00 99.6
548.00 99.6
547.00 99.6
546.00 99.6
545.00 99.6
544.00 99.6
543.00 99.6
542.00 99.6
541.00 99.6
540.00 99.7
539.00 99.7
538.00 99.6
537.00 99.6
536.00 99.6
535.00 99.6
534.00 99.6
533.00 99.6
532.00 99.6
531.00 99.6
530.00 99.6
529.00 99.6
528.00 99.6
527.00 99.6
526.00 99.6
525.00 99.6
524.00 99.6
523.00 99.6
522.00 99.6
521.00 99.6
520.00 99.6
519.00 99.6
518.00 99.6
517.00 99.6
516.00 99.7
515.00 99.7
514.00 99.7
513.00 99.7
512.00 99.7
511.00 99.7
510.00 99.6
509.00 99.6
508.00 99.6
507.00 99.6
506.00 99.6
505.00 99.6
504.00 99.6
503.00 99.7
502.00 99.7
501.00 99.7
500.00 99.7
499.00 99.7
498.00 99.7
497.00 99.7
496.00 99.7
495.00 99.7
494.00 99.6
493.00 99.6
492.00 99.6
491.00 99.6
490.00 99.6
489.00 99.6
488.00 99.6
487.00 99.6
486.00 99.6
485.00 99.6
484.00 99.6
483.00 99.6
482.00 99.6
481.00 99.6
480.00 99.6
479.00 99.6
478.00 99.6
477.00 99.6
476.00 99.6
475.00 99.6
474.00 99.6
473.00 99.6
472.00 99.6
471.00 99.6
470.00 99.6
469.00 99.6
468.00 99.6
467.00 99.6
466.00 99.6
465.00 99.6
464.00 99.6
463.00 99.6
462.00 99.6
461.00 99.6
460.00 99.6
459.00 99.6
458.00 99.6
457.00 99.6
456.00 99.6
455.00 99.6
454.00 99.6
453.00 99.6
452.00 99.6
451.00 99.6
450.00 99.6
449.00 99.6
448.00 99.6
447.00 99.6
446.00 99.6
445.00 99.6
444.00 99.6
443.00 99.6
442.00 99.6
441.00 99.6
440.00 99.6
439.00 99.6
438.00 99.6
437.00 99.6
436.00 99.6
435.00 99.6
434.00 99.6
433.00 99.5
432.00 99.5
431.00 99.5
430.00 99.5
429.00 99.5
428.00 99.5
427.00 99.5
426.00 99.5
425.00 99.5
424.00 99.5
423.00 99.5
422.00 99.5
421.00 99.5
420.00 99.5
419.00 99.5
418.00 99.5
417.00 99.5
416.00 99.5
415.00 99.5
414.00 99.5
413.00 99.5
412.00 99.5
411.00 99.5
410.00 99.5
409.00 99.5
408.00 99.4
407.00 99.4
406.00 99.4
405.00 99.4
404.00 99.4
403.00 99.4
402.00 99.4
401.00 99.4
400.00 99.4
399.00 99.4
398.00 99.4
397.00 99.4
396.00 99.4
395.00 99.3
394.00 99.3
393.00 99.3
392.00 99.3
391.00 99.3
390.00 99.3
389.00 99.3
388.00 99.3
387.00 99.3
386.00 99.3
385.00 99.3
384.00 99.3
383.00 99.3
382.00 99.2
381.00 99.2
380.00 99.2
379.00 99.2
378.00 99.1
377.00 99.1
376.00 99.1
375.00 99.1
374.00 99.1
373.00 99.0
372.00 99.0
371.00 99.0
370.00 99.0
369.00 99.0
368.00 99.0
367.00 98.9
366.00 98.9
365.00 98.9
364.00 98.9
363.00 98.8
362.00 98.8
361.00 98.8
360.00 98.8
359.00 98.7
358.00 98.7
357.00 98.7
356.00 98.7
355.00 98.6
354.00 98.6
353.00 98.6
352.00 98.6
351.00 98.5
350.00 98.5
349.00 98.5
348.00 98.4
347.00 98.4
346.00 98.4
345.00 98.4
344.00 98.3
343.00 98.3
342.00 98.3
341.00 98.3
340.00 98.2
339.00 98.2
338.00 98.1
337.00 98.1
336.00 98.0
335.00 98.0
334.00 98.0
333.00 97.9
332.00 97.9
331.00 97.8
330.00 97.8
329.00 97.8
328.00 97.7
327.00 97.7
326.00 97.6
325.00 97.6
324.00 97.5
323.00 97.5
322.00 97.4
321.00 97.3
320.00 97.3
319.00 97.2
318.00 97.1
317.00 97.1
316.00 97.0
315.00 96.9
314.00 96.8
313.00 96.7
312.00 96.7
311.00 96.6
310.00 96.5
309.00 96.4
308.00 96.3
307.00 96.2
306.00 96.1
305.00 96.0
304.00 95.8
303.00 95.7
302.00 95.6
301.00 95.5
300.00 95.4
299.00 95.2
298.00 95.1
297.00 95.0
296.00 94.8
295.00 94.7
294.00 94.6
293.00 94.4
292.00 94.3
291.00 94.1
290.00 94.0
289.00 93.9
288.00 93.7
287.00 93.6
286.00 93.5
285.00 93.3
284.00 93.2
283.00 93.1
282.00 92.9
281.00 92.8
280.00 92.7
279.00 92.6
278.00 92.5
277.00 92.4
276.00 92.3
275.00 92.1
274.00 92.0
273.00 91.9
272.00 91.9
271.00 91.8
270.00 91.7
269.00 91.6
268.00 91.5
267.00 91.4
266.00 91.3
265.00 91.2
264.00 91.1
263.00 91.0
262.00 90.9
261.00 90.8
260.00 90.7
259.00 90.6
258.00 90.5
257.00 90.3
256.00 90.2
255.00 90.1
254.00 89.9
253.00 89.8
252.00 89.7
251.00 89.5
250.00 89.4
249.00 89.2
248.00 89.1
247.00 88.9
246.00 88.8
245.00 88.6
244.00 88.4
243.00 88.3
242.00 88.1
241.00 87.9
240.00 87.7
239.00 87.5
238.00 87.3
237.00 87.1
236.00 86.8
235.00 86.6
234.00 86.3
233.00 86.1
232.00 85.8
231.00 85.5
230.00 85.1
229.00 84.8
228.00 84.4
227.00 84.0
226.00 83.6
225.00 83.1
224.00 82.7
223.00 82.2
222.00 81.7
221.00 81.1
220.00 80.6
219.00 80.0
218.00 79.4
217.00 78.8
216.00 78.1
215.00 77.5
214.00 76.9
213.00 76.3
212.00 75.8
211.00 75.2
210.00 74.6
209.00 74.1
208.00 73.5
207.00 73.0
206.00 72.5
205.00 72.0
204.00 71.4
203.00 70.9
202.00 70.4
201.00 70.0
200.00 69.7
##END=
