Wavelength	T
600.00	100.3
599.00	100.3
598.00	100.3
597.00	100.3
596.00	100.3
595.00	100.3
594.00	100.3
593.00	100.3
592.00	100.3
591.00	100.4
590.00	100.4
589.00	100.4
588.00	100.4
587.00	100.4
586.00	100.4
585.00	100.4
584.00	100.4
583.00	100.4
582.00	100.4
581.00	100.3
580.00	100.4
579.00	100.3
578.00	100.3
577.00	100.3
576.00	100.3
575.00	100.3
574.00	100.3
573.00	100.3
572.00	100.3
571.00	100.3
570.00	100.3
569.00	100.3
568.00	100.3
567.00	100.3
566.00	100.3
565.00	100.3
564.00	100.3
563.00	100.3
562.00	100.3
561.00	100.3
560.00	100.3
559.00	100.3
558.00	100.3
557.00	100.3
556.00	100.3
555.00	100.3
554.00	100.3
553.00	100.3
552.00	100.3
551.00	100.3
550.00	100.3
549.00	100.3
548.00	100.3
547.00	100.3
546.00	100.3
545.00	100.3
544.00	100.3
543.00	100.3
542.00	100.3
541.00	100.3
540.00	100.3
539.00	100.3
538.00	100.4
537.00	100.4
536.00	100.4
535.00	100.4
534.00	100.4
533.00	100.4
532.00	100.4
531.00	100.4
530.00	100.4
529.00	100.4
528.00	100.4
527.00	100.4
526.00	100.4
525.00	100.4
524.00	100.4
523.00	100.4
522.00	100.4
521.00	100.3
520.00	100.4
519.00	100.4
518.00	100.4
517.00	100.4
516.00	100.4
515.00	100.4
514.00	100.4
513.00	100.4
512.00	100.4
511.00	100.4
510.00	100.4
509.00	100.4
508.00	100.4
507.00	100.4
506.00	100.4
505.00	100.4
504.00	100.4
503.00	100.4
502.00	100.4
501.00	100.4
500.00	100.4
499.00	100.4
498.00	100.4
497.00	100.4
496.00	100.4
495.00	100.4
494.00	100.4
493.00	100.4
492.00	100.4
491.00	100.4
490.00	100.4
489.00	100.4
488.00	100.3
487.00	100.3
486.00	100.3
485.00	100.3
484.00	100.3
483.00	100.3
482.00	100.4
481.00	100.4
480.00	100.4
479.00	100.4
478.00	100.4
477.00	100.4
476.00	100.4
475.00	100.4
474.00	100.4
473.00	100.3
472.00	100.3
471.00	100.3
470.00	100.3
469.00	100.3
468.00	100.3
467.00	100.3
466.00	100.3
465.00	100.3
464.00	100.3
463.00	100.3
462.00	100.3
461.00	100.3
460.00	100.3
459.00	100.3
458.00	100.3
457.00	100.3
456.00	100.3
455.00	100.3
454.00	100.3
453.00	100.3
452.00	100.3
451.00	100.3
450.00	100.3
449.00	100.3
448.00	100.3
447.00	100.3
446.00	100.3
445.00	100.3
444.00	100.3
443.00	100.3
442.00	100.3
441.00	100.3
440.00	100.3
439.00	100.3
438.00	100.3
437.00	100.3
436.00	100.3
435.00	100.3
434.00	100.3
433.00	100.3
432.00	100.3
431.00	100.3
430.00	100.3
429.00	100.3
428.00	100.3
427.00	100.3
426.00	100.3
425.00	100.3
424.00	100.3
423.00	100.3
422.00	100.3
421.00	100.3
420.00	100.3
419.00	100.3
418.00	100.3
417.00	100.3
416.00	100.3
415.00	100.3
414.00	100.3
413.00	100.3
412.00	100.3
411.00	100.3
410.00	100.3
409.00	100.3
408.00	100.3
407.00	100.3
406.00	100.3
405.00	100.3
404.00	100.3
403.00	100.3
402.00	100.3
401.00	100.3
400.00	100.3
399.00	100.3
398.00	100.3
397.00	100.3
396.00	100.3
395.00	100.3
394.00	100.3
393.00	100.2
392.00	100.2
391.00	100.2
390.00	100.2
389.00	100.2
388.00	100.2
387.00	100.2
386.00	100.2
385.00	100.2
384.00	100.2
383.00	100.2
382.00	100.2
381.00	100.2
380.00	100.2
379.00	100.2
378.00	100.2
377.00	100.2
376.00	100.2
375.00	100.2
374.00	100.2
373.00	100.2
372.00	100.2
371.00	100.2
370.00	100.2
369.00	100.2
368.00	100.2
367.00	100.2
366.00	100.2
365.00	100.2
364.00	100.2
363.00	100.2
362.00	100.2
361.00	100.2
360.00	100.2
359.00	100.2
358.00	100.2
357.00	100.2
356.00	100.2
355.00	100.2
354.00	100.2
353.00	100.2
352.00	100.2
351.00	100.2
350.00	100.2
349.00	100.2
348.00	100.2
347.00	100.2
346.00	100.2
345.00	100.2
344.00	100.2
343.00	100.2
342.00	100.2
341.00	100.1
340.00	100.1
339.00	100.2
338.00	100.2
337.00	100.2
336.00	100.2
335.00	100.2
334.00	100.2
333.00	100.2
332.00	100.2
331.00	100.2
330.00	100.2
329.00	100.2
328.00	100.2
327.00	100.2
326.00	100.1
325.00	100.1
324.00	100.1
323.00	100.2
322.00	100.2
321.00	100.1
320.00	100.1
319.00	100.1
318.00	100.1
317.00	100.1
316.00	100.1
315.00	100.1
314.00	100.1
313.00	100.1
312.00	100.0
311.00	100.0
310.00	100.1
309.00	100.1
308.00	100.1
307.00	100.1
306.00	100.1
305.00	100.1
304.00	100.1
303.00	100.1
302.00	100.1
301.00	100.1
300.00	100.1
299.00	100.1
298.00	100.1
297.00	100.1
296.00	100.2
295.00	100.1
294.00	100.1
293.00	100.1
292.00	100.1
291.00	100.1
290.00	100.1
289.00	100.1
288.00	100.1
287.00	100.1
286.00	100.1
285.00	100.1
284.00	100.1
283.00	100.1
282.00	100.1
281.00	100.1
280.00	100.1
279.00	99.9
278.00	99.5
277.00	98.9
276.00	98.2
275.00	97.7
274.00	97.5
273.00	97.7
272.00	98.2
271.00	98.8
270.00	99.4
269.00	99.9
268.00	100.2
267.00	100.2
266.00	100.2
265.00	100.1
264.00	100.1
263.00	100.1
262.00	100.1
261.00	100.1
260.00	100.1
259.00	100.1
258.00	100.1
257.00	100.1
256.00	100.0
255.00	100.0
254.00	100.0
253.00	100.0
252.00	100.0
251.00	100.0
250.00	100.0
249.00	100.0
248.00	100.0
247.00	99.9
246.00	99.9
245.00	99.9
244.00	99.9
243.00	99.9
242.00	100.0
241.00	100.0
240.00	100.0
239.00	100.0
238.00	99.9
237.00	99.9
236.00	99.9
235.00	99.9
234.00	99.9
233.00	99.9
232.00	99.9
231.00	99.9
230.00	99.9
229.00	99.9
228.00	100.0
227.00	100.0
226.00	100.0
225.00	100.0
224.00	100.0
223.00	100.0
222.00	100.1
221.00	100.1
220.00	100.1
219.00	100.2
218.00	100.2
217.00	100.2
216.00	100.2
215.00	100.2
214.00	100.2
213.00	100.2
212.00	100.2
211.00	100.2
210.00	100.2
209.00	100.1
208.00	100.1
207.00	99.9
206.00	99.8
205.00	99.3
204.00	98.6
203.00	97.5
202.00	96.3
201.00	95.1
200.00	94.0

